# Water_Ice, Chemical Formula: H2O
# Sample ID: 1360micron_150K
# wavelengths (microns), reflectance
0.45	0.66418
0.5	0.68823
0.55	0.69575
0.6	0.69101
0.65	0.71191
0.7000000000000001	0.68821
0.75	0.69379
0.8	0.68554
0.85	0.68399
0.9	0.66129
0.9500000000000001	0.65521
1.0	0.57771
1.01	0.56207
1.02	0.54276
1.03	0.52501
1.04	0.51039
1.05	0.50027
1.06	0.50964
1.07	0.53951
1.08	0.5382
1.09	0.56471
1.1	0.54261
1.11	0.56166
1.12	0.56042
1.1300000000000001	0.55193
1.1400000000000001	0.54875
1.1500000000000001	0.53503
1.16	0.51716
1.17	0.49363
1.18	0.47474
1.19	0.41741
1.2	0.39981
1.21	0.35137
1.22	0.33616
1.23	0.30509
1.24	0.30419
1.25	0.28835
1.26	0.27888
1.27	0.27195
1.28	0.29709
1.29	0.29232
1.3	0.26445
1.31	0.26665
1.32	0.31185
1.33	0.30103
1.34	0.28618
1.35	0.30789
1.36	0.30161
1.37	0.31081
1.3800000000000001	0.32676
1.3900000000000001	0.29487
1.4000000000000001	0.27849
1.41	0.25978
1.42	0.22197
1.43	0.18556
1.44	0.14268
1.45	0.10442
1.46	0.07634
1.47	0.06743
1.48	0.06198
1.49	0.04676
1.5	0.05602
1.51	0.06012
1.52	0.05025
1.53	0.05896
1.54	0.04941
1.55	0.05188
1.56	0.05263
1.57	0.05689
1.58	0.05654
1.59	0.06151
1.6	0.05993
1.61	0.05883
1.62	0.06653
1.6300000000000001	0.06327
1.6400000000000001	0.05887
1.6500000000000001	0.06052
1.6600000000000001	0.07025
1.67	0.06877
1.68	0.0765
1.69	0.07604
1.7	0.08295
1.71	0.08722
1.72	0.08881
1.73	0.09567
1.74	0.10054
1.75	0.10524
1.76	0.10956
1.77	0.11219
1.78	0.10911
1.79	0.11921
1.8	0.12215
1.81	0.12245
1.82	0.12507
1.83	0.12633
1.84	0.11603
1.85	0.13924
1.86	0.11611
1.87	0.10612
1.8800000000000001	0.07643
1.8900000000000001	0.08872
1.9000000000000001	0.07145
1.9100000000000001	0.05172
1.92	0.05104
1.93	0.04724
1.94	0.03874
1.95	0.04983
1.96	0.04816
1.97	0.05214
1.98	0.05442
1.99	0.02692
2.0	0.06857
2.0100000000000002	0.05357
2.02	0.05667
2.0300000000000002	0.05002
2.04	0.04223
2.05	0.04879
2.06	0.06016
2.07	0.05151
2.08	0.04122
2.09	0.04533
2.1	0.039
2.11	0.02602
2.12	0.0486
2.13	0.05078
2.14	0.05437
2.15	0.05863
2.16	0.07706
2.17	0.06024
2.18	0.06979
2.19	0.05877
2.2	0.06039
2.21	0.08803
2.22	0.09032
2.23	0.08259
2.24	0.08773
2.25	0.08453
2.2600000000000002	0.08001
2.27	0.08303
2.2800000000000002	0.06009
2.29	0.07383
2.3000000000000003	0.05567
2.31	0.06626
2.32	0.05572
2.33	0.04914
2.34	0.04043
2.35	0.04986
2.36	0.04104
2.37	0.0352
2.38	0.06333
2.39	0.03609
2.4	0.03764
2.41	0.03833
2.42	0.02936
2.43	0.04058
2.44	0.04917
2.45	0.0436
2.46	0.03637
2.47	0.05927
2.48	0.01704
2.49	0.02955
2.5	0.04351
2.5100000000000002	0.06366
2.52	0.04514
2.5300000000000002	0.04469
2.54	0.05252
2.5500000000000003	0.034
2.56	0.06368
2.57	0.03714
2.58	0.03348
2.59	0.03535
2.6	0.09303
2.61	0.06492
2.62	0.06512
2.63	0.03821
2.64	0.05638
2.65	0.04339
2.66	0.0411
2.67	0.06374
2.68	0.13387
2.69	0.0513
2.7	0.0812
2.71	0.05252
2.72	0.03205
2.73	0.04846
2.74	0.03455
2.75	0.04281
2.7600000000000002	0.0704
2.77	0.03256
2.7800000000000002	0.06418
2.79	0.09711
2.8000000000000003	0.03247
2.81	0.06352
2.82	0.04365
2.83	0.03476
2.84	0.04726
2.85	0.0506
2.86	0.08907
2.87	0.082
2.88	0.02881
2.89	0.05752
2.9	0.05631
2.91	0.03583
2.92	0.08528
2.93	0.05394
2.94	0.0472
2.95	0.07737
2.96	0.05136
2.97	0.0289
2.98	0.03253
2.99	0.04024
3.0	0.02777
3.0100000000000002	0.04517
3.02	0.02446
3.0300000000000002	0.04351
3.04	0.04362
3.0500000000000003	0.04709
3.06	0.05465
3.0700000000000003	0.06521
3.08	0.06342
3.09	0.08755
3.1	0.08226
3.11	0.08901
3.12	0.07289
3.13	0.06501
3.14	0.0728
3.15	0.0668
3.16	0.05984
3.17	0.0679
3.18	0.05781
3.19	0.05987
3.2	0.05183
3.21	0.06576
3.22	0.06387
3.23	0.05664
3.24	0.05822
3.25	0.05117
3.2600000000000002	0.0455
3.27	0.04395
3.2800000000000002	0.0448
3.29	0.04613
3.3000000000000003	0.04592
3.31	0.03621
3.3200000000000003	0.04061
3.33	0.04205
3.34	0.04011
3.35	0.04226
3.36	0.03696
3.37	0.04547
3.38	0.05105
3.39	0.03469
3.4	0.03969
3.41	0.03796
3.42	0.04338
3.43	0.03998
3.44	0.04558
3.45	0.04456
3.46	0.04255
3.47	0.0539
3.48	0.05498
3.49	0.04695
3.5	0.05047
3.5100000000000002	0.04094
3.52	0.05296
3.5300000000000002	0.05262
3.54	0.0492
3.5500000000000003	0.06435
3.56	0.0437
3.5700000000000003	0.06199
3.58	0.06641
3.59	0.06305
3.6	0.0474
3.65	0.05059
3.7	0.04407
3.75	0.0435
3.8000000000000003	0.05184
3.85	0.04057
3.9	0.04104
3.95	0.04305
4.0	0.03331
4.05	0.02747
4.1	0.02433
4.15	0.01866
4.2	0.04863
