# Water_Ice, Chemical Formula: H2O
# Sample ID: 1360micron_120K
# wavelengths (microns), reflectance
0.45	0.64171
0.5	0.67879
0.55	0.6825
0.6	0.6761
0.65	0.67247
0.7000000000000001	0.68468
0.75	0.69111
0.8	0.68192
0.85	0.68178
0.9	0.65882
0.9500000000000001	0.65278
1.0	0.59157
1.01	0.56575
1.02	0.5362
1.03	0.52202
1.04	0.51289
1.05	0.50817
1.06	0.50201
1.07	0.52709
1.08	0.56442
1.09	0.56318
1.1	0.57692
1.11	0.55777
1.12	0.55457
1.1300000000000001	0.53529
1.1400000000000001	0.54037
1.1500000000000001	0.53038
1.16	0.50962
1.17	0.50063
1.18	0.46602
1.19	0.44104
1.2	0.40041
1.21	0.36489
1.22	0.33389
1.23	0.31187
1.24	0.29525
1.25	0.28304
1.26	0.26404
1.27	0.2689
1.28	0.25952
1.29	0.27601
1.3	0.26187
1.31	0.26694
1.32	0.28602
1.33	0.30501
1.34	0.31685
1.35	0.31935
1.36	0.32774
1.37	0.32569
1.3800000000000001	0.30439
1.3900000000000001	0.30458
1.4000000000000001	0.28952
1.41	0.26837
1.42	0.24031
1.43	0.1981
1.44	0.15799
1.45	0.11415
1.46	0.08553
1.47	0.07169
1.48	0.06267
1.49	0.06011
1.5	0.0585
1.51	0.05447
1.52	0.05535
1.53	0.05646
1.54	0.05299
1.55	0.05424
1.56	0.0523
1.57	0.05204
1.58	0.05837
1.59	0.05589
1.6	0.05966
1.61	0.06429
1.62	0.06144
1.6300000000000001	0.06467
1.6400000000000001	0.05879
1.6500000000000001	0.06149
1.6600000000000001	0.06008
1.67	0.06573
1.68	0.07263
1.69	0.07792
1.7	0.08599
1.71	0.08775
1.72	0.09607
1.73	0.10331
1.74	0.10941
1.75	0.12006
1.76	0.11874
1.77	0.12632
1.78	0.12449
1.79	0.12753
1.8	0.12504
1.81	0.13056
1.82	0.13085
1.83	0.12894
1.84	0.12906
1.85	0.13109
1.86	0.12701
1.87	0.11921
1.8800000000000001	0.10106
1.8900000000000001	0.08492
1.9000000000000001	0.07671
1.9100000000000001	0.06264
1.92	0.05841
1.93	0.05167
1.94	0.04925
1.95	0.04645
1.96	0.04554
1.97	0.04279
1.98	0.04721
1.99	0.04489
2.0	0.05052
2.0100000000000002	0.04751
2.02	0.04265
2.0300000000000002	0.05153
2.04	0.04439
2.05	0.04016
2.06	0.04533
2.07	0.04463
2.08	0.0454
2.09	0.05055
2.1	0.04478
2.11	0.04495
2.12	0.05037
2.13	0.05008
2.14	0.06352
2.15	0.05912
2.16	0.05953
2.17	0.06423
2.18	0.06921
2.19	0.07636
2.2	0.06889
2.21	0.08464
2.22	0.0904
2.23	0.09533
2.24	0.09713
2.25	0.09678
2.2600000000000002	0.0955
2.27	0.08641
2.2800000000000002	0.08342
2.29	0.06886
2.3000000000000003	0.061
2.31	0.06499
2.32	0.06212
2.33	0.04486
2.34	0.05205
2.35	0.041
2.36	0.05778
2.37	0.04839
2.38	0.04752
2.39	0.05025
2.4	0.04923
2.41	0.03696
2.42	0.04749
2.43	0.04698
2.44	0.0429
2.45	0.04465
2.46	0.03101
2.47	0.04981
2.48	0.03917
2.49	0.04069
2.5	0.04892
2.5100000000000002	0.03747
2.52	0.04624
2.5300000000000002	0.04368
2.54	0.04599
2.5500000000000003	0.04891
2.56	0.04189
2.57	0.06377
2.58	0.04674
2.59	0.03366
2.6	0.03317
2.61	0.05024
2.62	0.04704
2.63	0.03619
2.64	0.01433
2.65	0.03505
2.66	0.03553
2.67	0.07454
2.68	0.05226
2.69	0.04454
2.7	0.04445
2.71	0.01868
2.72	0.02224
2.73	0.04231
2.74	0.02538
2.75	0.02707
2.7600000000000002	0.02392
2.77	0.03666
2.7800000000000002	0.02054
2.79	0.00915
2.8000000000000003	0.01364
2.81	0.02724
2.82	0.04498
2.83	0.02101
2.84	0.01929
2.85	0.01274
2.86	0.01801
2.87	0.02463
2.88	0.02126
2.89	0.02699
2.9	0.02186
2.91	0.02241
2.92	0.00762
2.93	0.00662
2.94	0.01523
2.95	0.04197
2.96	0.01565
2.97	0.01609
2.98	0.02957
2.99	0.02342
3.0	0.02771
3.0100000000000002	0.03949
3.02	0.03137
3.0300000000000002	0.04074
3.04	0.04403
3.0500000000000003	0.05167
3.06	0.06029
3.0700000000000003	0.06748
3.08	0.08258
3.09	0.09547
3.1	0.10786
3.11	0.10842
3.12	0.08775
3.13	0.07831
3.14	0.07763
3.15	0.06836
3.16	0.0716
3.17	0.06603
3.18	0.06931
3.19	0.06774
3.2	0.06643
3.21	0.06995
3.22	0.06893
3.23	0.06769
3.24	0.06642
3.25	0.05312
3.2600000000000002	0.0412
3.27	0.0523
3.2800000000000002	0.04441
3.29	0.04853
3.3000000000000003	0.0478
3.31	0.04327
3.3200000000000003	0.04564
3.33	0.04598
3.34	0.04732
3.35	0.04569
3.36	0.05385
3.37	0.04409
3.38	0.04242
3.39	0.05119
3.4	0.05316
3.41	0.05389
3.42	0.05163
3.43	0.04155
3.44	0.05298
3.45	0.05514
3.46	0.04905
3.47	0.05252
3.48	0.06318
3.49	0.03931
3.5	0.05108
3.5100000000000002	0.05477
3.52	0.06005
3.5300000000000002	0.05866
3.54	0.05831
3.5500000000000003	0.05699
3.56	0.05709
3.5700000000000003	0.06106
3.58	0.061
3.59	0.05644
3.6	0.05059
3.65	0.0576
3.7	0.05693
3.75	0.05945
3.8000000000000003	0.04445
3.85	0.04553
3.9	0.05241
3.95	0.03815
4.0	0.02847
4.05	0.04932
4.1	0.03076
4.15	0.01782
4.2	0.0296
