# Water_Ice, Chemical Formula: H2O
# Sample ID: 300micron_irr_140K
# wavelengths (microns), reflectance
0.45	0.92857
0.5	0.92794
0.55	0.9202
0.6	0.91107
0.65	0.90187
0.7000000000000001	0.8966
0.75	0.89565
0.8	0.88651
0.85	0.88378
0.9	0.86711
0.9500000000000001	0.86357
1.0	0.80425
1.01	0.79127
1.02	0.78606
1.03	0.76313
1.04	0.75929
1.05	0.75264
1.06	0.75548
1.07	0.77657
1.08	0.79422
1.09	0.79509
1.1	0.8148
1.11	0.8013
1.12	0.78519
1.1300000000000001	0.79725
1.1400000000000001	0.78825
1.1500000000000001	0.78727
1.16	0.75562
1.17	0.7393
1.18	0.72441
1.19	0.685
1.2	0.65862
1.21	0.63137
1.22	0.60284
1.23	0.58728
1.24	0.57184
1.25	0.56609
1.26	0.54214
1.27	0.54292
1.28	0.5508
1.29	0.55194
1.3	0.54278
1.31	0.54253
1.32	0.56598
1.33	0.58388
1.34	0.58607
1.35	0.59284
1.36	0.59833
1.37	0.5876
1.3800000000000001	0.58786
1.3900000000000001	0.57414
1.4000000000000001	0.55961
1.41	0.53922
1.42	0.49903
1.43	0.44826
1.44	0.37375
1.45	0.29899
1.46	0.22407
1.47	0.16634
1.48	0.12294
1.49	0.10233
1.5	0.08956
1.51	0.08976
1.52	0.09136
1.53	0.09309
1.54	0.0981
1.55	0.09606
1.56	0.09746
1.57	0.10045
1.58	0.11037
1.59	0.1241
1.6	0.13734
1.61	0.15172
1.62	0.15354
1.6300000000000001	0.14861
1.6400000000000001	0.14169
1.6500000000000001	0.13486
1.6600000000000001	0.13912
1.67	0.17381
1.68	0.19585
1.69	0.21204
1.7	0.2281
1.71	0.25249
1.72	0.26453
1.73	0.28281
1.74	0.30533
1.75	0.31376
1.76	0.32369
1.77	0.32805
1.78	0.3371
1.79	0.33701
1.8	0.34209
1.81	0.34628
1.82	0.34989
1.83	0.35484
1.84	0.35326
1.85	0.34924
1.86	0.3353
1.87	0.31748
1.8800000000000001	0.27201
1.8900000000000001	0.22826
1.9000000000000001	0.18724
1.9100000000000001	0.14242
1.92	0.11428
1.93	0.09163
1.94	0.07698
1.95	0.06927
1.96	0.06521
1.97	0.06276
1.98	0.05524
1.99	0.05513
2.0	0.05578
2.0100000000000002	0.05397
2.02	0.0493
2.0300000000000002	0.05337
2.04	0.0531
2.05	0.05634
2.06	0.0521
2.07	0.05187
2.08	0.05507
2.09	0.06087
2.1	0.06731
2.11	0.07922
2.12	0.09617
2.13	0.09643
2.14	0.12226
2.15	0.13829
2.16	0.15764
2.17	0.1763
2.18	0.19885
2.19	0.2104
2.2	0.22863
2.21	0.25015
2.22	0.26037
2.23	0.27416
2.24	0.27954
2.25	0.2737
2.2600000000000002	0.27202
2.27	0.24533
2.2800000000000002	0.23364
2.29	0.21204
2.3000000000000003	0.19158
2.31	0.1738
2.32	0.157
2.33	0.13058
2.34	0.12417
2.35	0.11249
2.36	0.12171
2.37	0.11118
2.38	0.10795
2.39	0.08902
2.4	0.09641
2.41	0.09253
2.42	0.09671
2.43	0.09286
2.44	0.08913
2.45	0.08375
2.46	0.08257
2.47	0.09143
2.48	0.08319
2.49	0.06708
2.5	0.08343
2.5100000000000002	0.06549
2.52	0.07707
2.5300000000000002	0.06019
2.54	0.0682
2.5500000000000003	0.06332
2.56	0.07401
2.57	0.09939
2.58	0.08007
2.59	0.05942
2.6	0.05719
2.61	0.073
2.62	0.07641
2.63	0.06549
2.64	0.06995
2.65	0.05696
2.66	0.0353
2.67	0.06409
2.68	0.04559
2.69	0.048
2.7	0.03895
2.71	0.0383
2.72	0.04258
2.73	0.0339
2.74	0.02675
2.75	0.01496
2.7600000000000002	0.04867
2.77	0.04114
2.7800000000000002	0.03747
2.79	0.02968
2.8000000000000003	0.01743
2.81	0.01549
2.82	0.05377
2.83	0.02236
2.84	0.01449
2.85	0.01939
2.86	0.02337
2.87	0.02069
2.88	0.02509
2.89	0.01931
2.9	0.02021
2.91	0.01727
2.92	0.02061
2.93	0.01753
2.94	0.01561
2.95	0.02769
2.96	0.02441
2.97	0.02058
2.98	0.02317
2.99	0.02113
3.0	0.01866
3.0100000000000002	0.01018
3.02	0.01495
3.0300000000000002	0.02773
3.04	0.03958
3.0500000000000003	0.03021
3.06	0.03308
3.0700000000000003	0.04114
3.08	0.04216
3.09	0.04917
3.1	0.05346
3.11	0.05306
3.12	0.0519
3.13	0.04785
3.14	0.03991
3.15	0.03992
3.16	0.03836
3.17	0.04447
3.18	0.03753
3.19	0.03707
3.2	0.03813
3.21	0.04637
3.22	0.03792
3.23	0.03749
3.24	0.03371
3.25	0.02932
3.2600000000000002	0.03169
3.27	0.03545
3.2800000000000002	0.03925
3.29	0.02916
3.3000000000000003	0.03012
3.31	0.03479
3.3200000000000003	0.02923
3.33	0.02827
3.34	0.03239
3.35	0.03696
3.36	0.02948
3.37	0.03629
3.38	0.03301
3.39	0.03282
3.4	0.03261
3.41	0.03691
3.42	0.03336
3.43	0.03416
3.44	0.04087
3.45	0.04121
3.46	0.03542
3.47	0.04409
3.48	0.04124
3.49	0.05067
3.5	0.04265
3.5100000000000002	0.04322
3.52	0.04703
3.5300000000000002	0.05436
3.54	0.04317
3.5500000000000003	0.05956
3.56	0.05681
3.5700000000000003	0.05945
3.58	0.05015
3.59	0.04447
3.6	0.05706
3.65	0.0561
3.7	0.04859
3.75	0.05502
3.8000000000000003	0.03646
3.85	0.03945
3.9	0.04254
3.95	0.02916
4.0	0.0291
4.05	0.03835
4.1	0.03564
4.15	0.01665
4.2	0.04833
