# Water_Ice, Chemical Formula: H2O
# Sample ID: 1360micron_100K
# wavelengths (microns), reflectance
0.45	0.69824
0.5	0.66117
0.55	0.67781
0.6	0.67435
0.65	0.68686
0.7000000000000001	0.68457
0.75	0.68978
0.8	0.68234
0.85	0.68165
0.9	0.65863
0.9500000000000001	0.65227
1.0	0.57208
1.01	0.57092
1.02	0.54676
1.03	0.52637
1.04	0.52426
1.05	0.50357
1.06	0.50881
1.07	0.54715
1.08	0.5606
1.09	0.56689
1.1	0.57735
1.11	0.57518
1.12	0.56228
1.1300000000000001	0.54742
1.1400000000000001	0.54714
1.1500000000000001	0.53607
1.16	0.52484
1.17	0.50322
1.18	0.46643
1.19	0.43547
1.2	0.39499
1.21	0.37041
1.22	0.34626
1.23	0.31992
1.24	0.30078
1.25	0.28122
1.26	0.28135
1.27	0.26668
1.28	0.27184
1.29	0.26643
1.3	0.26452
1.31	0.26461
1.32	0.2781
1.33	0.30897
1.34	0.31713
1.35	0.32367
1.36	0.32502
1.37	0.32444
1.3800000000000001	0.33721
1.3900000000000001	0.30511
1.4000000000000001	0.29718
1.41	0.27515
1.42	0.24036
1.43	0.20473
1.44	0.1559
1.45	0.11934
1.46	0.09615
1.47	0.0771
1.48	0.06769
1.49	0.06277
1.5	0.05573
1.51	0.05759
1.52	0.06052
1.53	0.05513
1.54	0.05639
1.55	0.05778
1.56	0.05603
1.57	0.05693
1.58	0.05568
1.59	0.05825
1.6	0.05597
1.61	0.06525
1.62	0.06614
1.6300000000000001	0.06537
1.6400000000000001	0.06298
1.6500000000000001	0.06199
1.6600000000000001	0.05485
1.67	0.06575
1.68	0.07169
1.69	0.08529
1.7	0.08938
1.71	0.09964
1.72	0.10713
1.73	0.11572
1.74	0.12452
1.75	0.13364
1.76	0.12832
1.77	0.13118
1.78	0.13265
1.79	0.13219
1.8	0.13298
1.81	0.13243
1.82	0.13836
1.83	0.13581
1.84	0.1376
1.85	0.13452
1.86	0.12667
1.87	0.11613
1.8800000000000001	0.10295
1.8900000000000001	0.08262
1.9000000000000001	0.06787
1.9100000000000001	0.06975
1.92	0.06078
1.93	0.05177
1.94	0.04939
1.95	0.04646
1.96	0.05462
1.97	0.05158
1.98	0.04874
1.99	0.04426
2.0	0.04733
2.0100000000000002	0.04542
2.02	0.0481
2.0300000000000002	0.04462
2.04	0.04307
2.05	0.0478
2.06	0.04831
2.07	0.04219
2.08	0.04274
2.09	0.04723
2.1	0.05204
2.11	0.04076
2.12	0.05649
2.13	0.05296
2.14	0.05222
2.15	0.05699
2.16	0.06035
2.17	0.0632
2.18	0.06705
2.19	0.07269
2.2	0.07569
2.21	0.08442
2.22	0.08015
2.23	0.09677
2.24	0.09959
2.25	0.09729
2.2600000000000002	0.08585
2.27	0.09074
2.2800000000000002	0.0798
2.29	0.07588
2.3000000000000003	0.06706
2.31	0.05841
2.32	0.05331
2.33	0.05807
2.34	0.04767
2.35	0.05263
2.36	0.05241
2.37	0.04655
2.38	0.05037
2.39	0.04528
2.4	0.04987
2.41	0.05104
2.42	0.05
2.43	0.04323
2.44	0.04079
2.45	0.0509
2.46	0.04288
2.47	0.04491
2.48	0.0438
2.49	0.05152
2.5	0.04999
2.5100000000000002	0.04173
2.52	0.04386
2.5300000000000002	0.03546
2.54	0.0452
2.5500000000000003	0.05254
2.56	0.02976
2.57	0.03849
2.58	0.04747
2.59	0.03799
2.6	0.03236
2.61	0.05143
2.62	0.03136
2.63	0.05063
2.64	0.05333
2.65	0.04987
2.66	0.03913
2.67	0.05792
2.68	0.05317
2.69	0.05699
2.7	0.04341
2.71	0.03979
2.72	0.04316
2.73	0.01611
2.74	0.03333
2.75	0.03346
2.7600000000000002	0.04005
2.77	0.01114
2.7800000000000002	0.02077
2.79	0.04048
2.8000000000000003	0.02094
2.81	0.02774
2.82	0.02035
2.83	0.02136
2.84	0.0178
2.85	0.03531
2.86	0.01378
2.87	0.00661
2.88	0.0142
2.89	0.0228
2.9	0.03714
2.91	0.01128
2.92	0.01877
2.93	0.02016
2.94	0.01977
2.95	0.01995
2.96	0.02679
2.97	0.02384
2.98	0.01369
2.99	0.03581
3.0	0.02713
3.0100000000000002	0.03227
3.02	0.03519
3.0300000000000002	0.03688
3.04	0.04173
3.0500000000000003	0.05196
3.06	0.0578
3.0700000000000003	0.06127
3.08	0.08276
3.09	0.10055
3.1	0.1151
3.11	0.1171
3.12	0.11159
3.13	0.10548
3.14	0.08474
3.15	0.07586
3.16	0.07316
3.17	0.07391
3.18	0.07281
3.19	0.07602
3.2	0.07224
3.21	0.07919
3.22	0.08094
3.23	0.07077
3.24	0.06898
3.25	0.05439
3.2600000000000002	0.05488
3.27	0.05885
3.2800000000000002	0.05313
3.29	0.05109
3.3000000000000003	0.05281
3.31	0.05492
3.3200000000000003	0.05037
3.33	0.05259
3.34	0.05633
3.35	0.05041
3.36	0.04253
3.37	0.05152
3.38	0.05832
3.39	0.05087
3.4	0.0575
3.41	0.0567
3.42	0.05892
3.43	0.05468
3.44	0.05451
3.45	0.04927
3.46	0.05514
3.47	0.06054
3.48	0.05757
3.49	0.0642
3.5	0.05848
3.5100000000000002	0.05538
3.52	0.06039
3.5300000000000002	0.06425
3.54	0.0653
3.5500000000000003	0.07183
3.56	0.06314
3.5700000000000003	0.05709
3.58	0.05664
3.59	0.07254
3.6	0.06457
3.65	0.06295
3.7	0.04477
3.75	0.04996
3.8000000000000003	0.04718
3.85	0.03573
3.9	0.0545
3.95	0.04657
4.0	0.03579
4.05	0.04827
4.1	0.03794
4.15	0.03097
4.2	0.05513
